waveLength,energyDensity
91.232366,0.0000008
91.2353295,0.0000008
91.2385303,0.0000008
91.2419943,0.0000008
91.2457513,0.0000008
91.2498352,0.0000008
91.2542852,0.0000008
91.2591463,0.0000008
91.2644709,0.0000008
91.2703197,0.0000008
91.2767639,0.0000008
91.2838873,0.0000008
91.2917887,0.0000008
91.3005859,0.0000008
91.3104195,0.0000008
,
91.3214592,0.0000008
91.3339105,0.0000008
91.3480251,0.0000008
91.3641133,0.0000008
91.3825609,0.0000008
,
91.4038537,0.0000008
91.4286086,0.0000008
91.4576201,0.0000008
91.4919242,0.0000008
91.5328932,0.0000008
,
91.5823751,0.0000008
91.6429076,0.0000008
91.7180514,0.0000008
91.81293,0.0000004
91.81293175,0.00000003
,
91.81293046,0.00000003
91.81293188,0.00000003
91.9351334,0.0000005
91.93513419,0.00000003
91.93513605,0.00000003
,
91.93513358,0.000000019
91.93513586,0.00000003
92.0963006,0.0000007
92.09630369,0.00000003
92.09630145,0.00000003
,
92.09630394,0.00000003
92.3150275,0.0000009
92.31502738,0.000000017
92.31503159,0.00000003
92.3150285,0.00000003
,
92.31503193,0.00000003
92.62256653,0.0000000003
92.6225621,0.0000000005
92.62256701,0.0000000005
92.6225605,0.0000013
,
93.07481505,0.00000002
93.07482418,0.00000003
93.07481751,0.00000003
93.07482489,0.00000003
93.0748142,0.000002
,
93.78033611,0.0000000009
93.78034803,0.0000000009
93.78034687,0.0000000006
93.780331,0.000004
94.97429095,0.00000004
,
94.974287,0.000005
94.97431207,0.00000004
94.974284,0.000000021
94.97431003,0.00000004
97.25365,0.000011
,
97.2536985,0.0000000003
97.25365944,0.0000000003
97.2537027,0.0000000005
102.5721447,0.000000007
102.5721827,0.000000021
,
102.5722855,0.000000007
102.5721825,0.000000007
102.5722,0.00003
102.5722966,0.000000007
121.5668237,0.0000000006
,
121.5673645,0.0000000004
121.56701,0.00015
121.5673123,0
365.51234,0.00013
365.55993,0.00013
365.61134,0.00013
365.66698,0.00019
365.72735,0.00019
,
365.79299,0.00019
365.86453,0.00019
365.94271,0.00019
366.02837,0.00019
366.12249,0.00019
,
366.22625,0.00019
366.34098,0.00019
366.46831,0.00019
366.61016,0.00019
366.76881,0.00019
,
366.94705,0.00019
367.14823,0.00019
367.37649,0.00019
367.63692,0.00019
367.93589,0.00019
,
368.28143,0.00019
368.68376,0.00019
369.15611,0.00019
369.71581,0.00019
370.38593,0.00019
,
371.19774,0.00019
372.19449,0.00019
373.43746,0.0002
375.0124905,0.0000021
375.0125118,0.0000022
,
375.01275,0.00008
375.0129789,0.0000021
375.0129867,0.0000022
375.0129869,0.0000021
375.0130082,0.0000022
,
375.0130105,0.0000022
375.01584,0.0002
375.01515,0.00008
375.0176298,0.0000021
375.01763,0.00003
,
375.0176378,0.0000021
375.0176591,0.0000022
377.060301,0.0000021
377.060329,0.0000022
377.06056,0.00009
,
377.0608027,0.0000022
377.0608308,0.0000022
377.060834,0.0000022
377.063,0.00009
377.06368,0.0002
,
377.0654943,0.0000021
377.0655,0.00003
377.0655047,0.0000021
377.0655327,0.0000022
379.7870048,0.0000021
,
379.7870427,0.0000022
379.78727,0.00009
379.7874999,0.0000021
379.7875137,0.0000022
379.7875518,0.0000022
,
379.787556,0.0000022
379.78974,0.00009
379.79044,0.0002
379.7922699,0.0000021
379.79227,0.00003
,
379.792284,0.0000021
379.7923219,0.0000022
383.5355892,0.0000022
383.5356424,0.0000022
383.53587,0.00009
,
383.5361082,0.0000022
383.5361616,0.0000022
383.5361673,0.0000022
383.53839,0.00009
383.53909,0.00021
,
383.5409535,0.0000022
383.54096,0.00003
383.5409732,0.0000022
383.5410263,0.0000022
388.9019815,0.0000021
,
388.9020595,0.0000021
388.90227,0.00009
388.9024865,0.0000021
388.9025152,0.0000021
388.9025154,0.0000021
,
388.9025933,0.0000021
388.9026017,0.0000021
388.90486,0.00009
388.90557,0.00021
388.9074883,0.0000021
,
388.90749,0.00003
388.9075172,0.0000021
388.9075951,0.0000021
397.0041763,0.0000022
397.0042976,0.0000022
,
397.00448,0.00009
397.0047325,0.0000022
397.0048539,0.0000022
397.004867,0.0000022
397.00719,0.00009
,
397.00788,0.00022
397.0099002,0.0000022
397.00991,0.00003
397.009945,0.0000022
397.0100663,0.0000022
,
410.1702284,0.0000021
410.1704339,0.0000021
410.17056,0.0001
410.1707462,0.0000021
410.1708218,0.0000021
,
410.1710277,0.0000021
410.1710499,0.0000021
410.17415,0.00024
410.17346,0.0001
410.17631,0.0000021
,
410.17632,0.00003
410.176386,0.0000021
410.1765915,0.0000021
434.0426937,0.0000022
434.04309,0.00011
,
434.0430904,0.0000023
434.0433568,0.0000023
434.0437554,0.0000023
434.0437982,0.0000023
434.04634,0.00011
,
434.0471,0.0003
434.0494419,0.0000022
434.04947,0.00004
434.0495889,0.0000022
434.0499857,0.0000023
,
486.1278624,0.0000024
486.1283363,0.0000024
486.12841,0.00014
486.1286949,0.0000024
486.128837,0.0000024
,
486.1296711,0.0000024
486.1297761,0.0000024
486.1325,0.00014
486.1333,0.0003
486.1361516,0.0000024
,
486.13622,0.00005
486.1365118,0.0000024
486.1374864,0.0000024
656.27097,0.000003
656.2714,0.0004
,
656.2722,0.0009
656.272483,0.000003
656.275181,0.000003
656.276701,0.000003
656.277,0.0006
,
656.277153,0.000003
656.2819,0.0007
656.2795,0.0009
656.285177,0.000003
656.28533,0.00003
,
656.2854,0.0003
656.286734,0.000003
656.290944,0.000003
824.9974,0.0005
825.2399,0.0005
,
825.5019,0.0005
825.7856,0.0005
826.0936,0.0005
826.4285,0.0005
826.7938,0.0005
,
827.1931,0.0005
827.6309,0.0005
828.1123,0.0005
828.6432,0.0005
829.2308,0.0006
,
829.8835,0.0006
830.6113,0.0006
831.4261,0.0006
832.3425,0.0006
833.3783,0.0006
,
834.5553,0.0006
835.9004,0.0006
837.4476,0.0006
839.2397,0.0006
841.3318,0.0006
,
843.7956,0.0006
846.7254,0.0006
850.2483,0.0006
854.5383,0.0006
859.8392,0.0006
,
866.5018,0.0006
875.0472,0.0005
886.2783,0.0006
901.491,0.0007
922.9014,0.0007
,
954.5969,0.0006
1 004.9369,0.0007
1 093.798199,0.000006
1 093.799454,0.000006
1 093.799661,0.000006
,
1 093.801075,0.000006
1 093.810612,0.000006
1 093.810633,0.000006
1 093.811150,0.000006
1 093.811173,0.000006
,
1 093.812635,0.000006
1 093.812771,0.000006
1 093.814666,0.000006
1 093.814936,0.000006
1 093.815474,0.000006
,
1 093.8086,0.001
1 281.792576,0.000008
1 281.794286,0.000009
1 281.796036,0.000009
1 281.798135,0.000009
,
1 281.8070,0.001
1 281.809075,0.000007
1 281.809111,0.000008
1 281.810348,0.000009
1 281.810393,0.000008
,
1 281.813853,0.000009
1 281.814197,0.000009
1 281.814378,0.00001
1 281.815013,0.000007
1 281.816286,0.000009
,
1 519.1861,0.0009
1 526.0555,0.0009
1 534.1807,0.0009
1 543.8938,0.001
1 555.6466,0.0015
,
1 570.0679,0.0015
1 588.0559,0.0013
1 610.9330,0.0013
1 640.7210,0.0016
1 680.6538,0.0017
,
1 736.2127,0.0018
1 817.4141,0.002
1 875.068381,0.00001
1 875.072050,0.00001
1 875.082881,0.00001
,
1 875.088135,0.00001
1 875.101086,0.00002
1 875.101149,0.00001
1 875.106422,0.000012
1 875.106508,0.00001
,
1 875.111120,0.000011
1 875.113794,0.00002
1 875.119130,0.00001
1 875.121008,0.00001
1 875.122507,0.000012
,
1 875.0976,0.0025
1 944.5582,0.0023